File: Group1/Raman/data/pmma_1.csv
AP Cora 5001
Software_Version;1.4.1
[SAMPLE]
Sample_Name;pmma_1
Method;
[PARAMETERS]
Instrument_Type;Cora 5001
Instrument_SN;99119713
Last_SST;3/7/2024 1:00:25 PM +00:00
User_Name;labmanager
Measurement_Started;3/7/2024 2:30:54 PM
Measurement_Finished;3/7/2024 2:31:55 PM
Measurement_Saved;3/7/2024 2:31:55 PM
Wavelength;785
Laser_Power;10
Auto_Exposure;False
Exposure_Time;10000
Averaged_Spectra;3
Probe_Type;Regular Probe (785 nm)
Probe_SN;99101107
Dark_Background;True
User_Background_Spectrum;
Spike_Removal;True
Baseline_Correction;False
Smoothing;False
Normalization;None
[SPECTRUM QUALITY]
Quality_Saturation;False
Quality_SBR;NaN
Quality_Temperature;False
[SPECTRUM]
100.00;8215.74
102.00;7982.71
104.00;7721.26
106.00;7430.54
108.00;7091.25
110.00;6721.90
112.00;6322.77
114.00;5904.56
116.00;5473.53
118.00;5051.81
120.00;4640.03
122.00;4243.59
124.00;3865.81
126.00;3498.85
128.00;3164.88
130.00;2848.08
132.00;2560.13
134.00;2296.34
136.00;2047.71
138.00;1833.48
140.00;1630.74
142.00;1444.76
144.00;1283.95
146.00;1133.76
148.00;996.77
150.00;883.24
152.00;785.37
154.00;701.71
156.00;620.36
158.00;562.47
160.00;509.77
162.00;454.88
164.00;414.00
166.00;386.56
168.00;358.40
170.00;331.96
172.00;314.88
174.00;295.29
176.00;279.88
178.00;270.70
180.00;257.62
182.00;251.91
184.00;242.01
186.00;234.54
188.00;225.90
190.00;219.19
192.00;217.77
194.00;210.62
196.00;206.61
198.00;205.15
200.00;198.87
202.00;195.07
204.00;195.70
206.00;192.67
208.00;190.11
210.00;191.14
212.00;189.07
214.00;184.82
216.00;185.10
218.00;183.68
220.00;178.17
222.00;178.41
224.00;178.06
226.00;177.25
228.00;179.67
230.00;175.02
232.00;176.06
234.00;173.85
236.00;173.59
238.00;173.14
240.00;170.52
242.00;169.60
244.00;166.96
246.00;164.38
248.00;168.59
250.00;168.26
252.00;165.84
254.00;163.49
256.00;162.45
258.00;158.08
260.00;154.32
262.00;160.59
264.00;158.81
266.00;156.15
268.00;158.10
270.00;159.52
272.00;157.37
274.00;156.20
276.00;157.10
278.00;157.32
280.00;163.08
282.00;159.98
284.00;158.76
286.00;163.55
288.00;165.80
290.00;168.75
292.00;164.80
294.00;169.55
296.00;171.89
298.00;168.53
300.00;173.60
302.00;168.69
304.00;168.98
306.00;163.93
308.00;163.91
310.00;159.31
312.00;158.13
314.00;153.45
316.00;150.51
318.00;146.95
320.00;147.41
322.00;146.32
324.00;142.07
326.00;139.54
328.00;137.33
330.00;138.12
332.00;140.55
334.00;142.81
336.00;140.40
338.00;139.15
340.00;142.51
342.00;145.71
344.00;147.16
346.00;152.76
348.00;155.76
350.00;157.25
352.00;166.06
354.00;170.36
356.00;173.29
358.00;175.84
360.00;178.60
362.00;184.62
364.00;188.87
366.00;186.72
368.00;184.26
370.00;186.88
372.00;181.33
374.00;181.97
376.00;175.56
378.00;173.22
380.00;168.61
382.00;167.14
384.00;160.60
386.00;151.64
388.00;152.79
390.00;149.03
392.00;151.33
394.00;143.74
396.00;139.03
398.00;136.79
400.00;132.92
402.00;128.41
404.00;123.27
406.00;124.83
408.00;122.20
410.00;116.63
412.00;114.07
414.00;116.15
416.00;111.24
418.00;112.42
420.00;106.22
422.00;105.45
424.00;103.06
426.00;105.29
428.00;103.84
430.00;99.60
432.00;102.20
434.00;101.08
436.00;101.02
438.00;100.82
440.00;102.99
442.00;99.36
444.00;103.41
446.00;104.35
448.00;102.81
450.00;102.68
452.00;107.87
454.00;106.96
456.00;103.11
458.00;110.16
460.00;110.53
462.00;111.02
464.00;114.92
466.00;118.94
468.00;120.49
470.00;126.22
472.00;130.84
474.00;135.36
476.00;145.82
478.00;147.57
480.00;153.96
482.00;159.28
484.00;157.07
486.00;161.55
488.00;156.29
490.00;156.44
492.00;155.51
494.00;147.03
496.00;140.74
498.00;138.27
500.00;134.78
502.00;130.64
504.00;125.49
506.00;123.06
508.00;122.26
510.00;121.39
512.00;116.48
514.00;114.13
516.00;112.50
518.00;105.84
520.00;108.11
522.00;103.87
524.00;102.69
526.00;103.25
528.00;103.25
530.00;105.09
532.00;103.68
534.00;101.15
536.00;106.45
538.00;104.16
540.00;105.69
542.00;107.94
544.00;110.60
546.00;114.30
548.00;117.59
550.00;122.22
552.00;125.39
554.00;128.13
556.00;130.14
558.00;134.04
560.00;135.48
562.00;134.64
564.00;134.22
566.00;131.06
568.00;135.64
570.00;136.69
572.00;135.37
574.00;142.60
576.00;146.19
578.00;147.57
580.00;153.13
582.00;162.18
584.00;176.18
586.00;183.78
588.00;199.17
590.00;214.25
592.00;235.74
594.00;255.69
596.00;276.25
598.00;290.59
600.00;299.53
602.00;297.72
604.00;285.99
606.00;269.49
608.00;246.30
610.00;225.94
612.00;207.06
614.00;193.60
616.00;181.37
618.00;168.36
620.00;159.12
622.00;145.23
624.00;134.27
626.00;129.00
628.00;126.01
630.00;119.74
632.00;116.49
634.00;115.74
636.00;113.48
638.00;110.28
640.00;112.08
642.00;107.63
644.00;100.79
646.00;103.56
648.00;101.65
650.00;97.94
652.00;96.64
654.00;96.60
656.00;95.18
658.00;90.27
660.00;91.94
662.00;94.04
664.00;91.55
666.00;88.36
668.00;88.13
670.00;87.53
672.00;86.89
674.00;84.96
676.00;81.16
678.00;85.01
680.00;83.48
682.00;80.34
684.00;80.24
686.00;81.83
688.00;81.34
690.00;83.48
692.00;80.41
694.00;78.08
696.00;79.95
698.00;78.18
700.00;78.70
702.00;81.29
704.00;79.60
706.00;80.71
708.00;79.62
710.00;79.14
712.00;80.47
714.00;80.98
716.00;79.84
718.00;82.13
720.00;84.24
722.00;85.46
724.00;91.18
726.00;92.23
728.00;94.08
730.00;101.99
732.00;107.61
734.00;101.71
736.00;103.48
738.00;101.81
740.00;98.50
742.00;101.63
744.00;98.28
746.00;95.12
748.00;97.08
750.00;98.48
752.00;99.28
754.00;98.56
756.00;103.89
758.00;105.76
760.00;108.82
762.00;113.39
764.00;112.99
766.00;118.52
768.00;119.43
770.00;120.99
772.00;123.36
774.00;123.58
776.00;128.59
778.00;129.87
780.00;128.59
782.00;135.17
784.00;135.15
786.00;137.92
788.00;142.95
790.00;148.93
792.00;152.48
794.00;159.50
796.00;173.81
798.00;188.32
800.00;208.52
802.00;243.78
804.00;294.41
806.00;372.46
808.00;467.20
810.00;552.03
812.00;596.05
814.00;557.73
816.00;460.34
818.00;362.52
820.00;288.09
822.00;239.88
824.00;207.87
826.00;188.38
828.00;167.74
830.00;163.09
832.00;157.34
834.00;150.30
836.00;149.72
838.00;149.70
840.00;151.54
842.00;151.24
844.00;149.31
846.00;145.46
848.00;140.37
850.00;140.11
852.00;137.36
854.00;134.60
856.00;133.10
858.00;134.10
860.00;129.71
862.00;130.39
864.00;129.27
866.00;128.55
868.00;128.33
870.00;132.20
872.00;131.27
874.00;134.76
876.00;134.34
878.00;138.60
880.00;138.56
882.00;135.87
884.00;134.52
886.00;131.98
888.00;134.14
890.00;130.81
892.00;133.25
894.00;135.79
896.00;137.25
898.00;137.02
900.00;139.31
902.00;141.68
904.00;146.39
906.00;143.83
908.00;150.20
910.00;151.90
912.00;153.70
914.00;150.58
916.00;152.95
918.00;152.72
920.00;147.07
922.00;145.52
924.00;145.49
926.00;141.33
928.00;143.24
930.00;145.49
932.00;142.58
934.00;146.25
936.00;150.36
938.00;153.70
940.00;156.76
942.00;159.25
944.00;163.85
946.00;163.52
948.00;170.40
950.00;181.10
952.00;192.19
954.00;201.81
956.00;216.67
958.00;236.74
960.00;249.64
962.00;264.85
964.00;273.89
966.00;281.12
968.00;284.63
970.00;280.37
972.00;270.00
974.00;264.97
976.00;261.12
978.00;260.81
980.00;268.34
982.00;273.04
984.00;272.13
986.00;277.17
988.00;278.30
990.00;273.17
992.00;272.11
994.00;270.68
996.00;267.83
998.00;268.49
1000.00;267.10
1002.00;255.53
1004.00;224.60
1006.00;183.35
1008.00;144.65
1010.00;121.75
1012.00;107.70
1014.00;99.91
1016.00;97.12
1018.00;97.05
1020.00;96.22
1022.00;96.12
1024.00;96.15
1026.00;93.54
1028.00;88.43
1030.00;86.09
1032.00;79.94
1034.00;78.93
1036.00;75.78
1038.00;73.49
1040.00;74.22
1042.00;75.08
1044.00;78.38
1046.00;77.23
1048.00;78.71
1050.00;77.13
1052.00;79.93
1054.00;84.19
1056.00;86.32
1058.00;92.48
1060.00;94.55
1062.00;96.87
1064.00;99.24
1066.00;98.63
1068.00;95.04
1070.00;94.51
1072.00;92.57
1074.00;89.38
1076.00;90.24
1078.00;86.25
1080.00;85.62
1082.00;84.52
1084.00;84.14
1086.00;87.03
1088.00;87.83
1090.00;91.87
1092.00;97.45
1094.00;94.64
1096.00;96.25
1098.00;102.94
1100.00;104.70
1102.00;107.91
1104.00;115.27
1106.00;116.51
1108.00;120.69
1110.00;128.26
1112.00;134.65
1114.00;140.40
1116.00;142.94
1118.00;148.80
1120.00;155.90
1122.00;153.91
1124.00;156.94
1126.00;154.48
1128.00;148.07
1130.00;141.38
1132.00;137.93
1134.00;131.88
1136.00;125.77
1138.00;122.86
1140.00;124.77
1142.00;126.67
1144.00;125.16
1146.00;129.44
1148.00;132.49
1150.00;138.81
1152.00;141.90
1154.00;146.59
1156.00;153.66
1158.00;157.66
1160.00;154.74
1162.00;151.69
1164.00;146.71
1166.00;146.61
1168.00;147.48
1170.00;151.37
1172.00;153.53
1174.00;154.05
1176.00;157.89
1178.00;166.89
1180.00;168.45
1182.00;173.37
1184.00;172.14
1186.00;172.67
1188.00;162.85
1190.00;167.27
1192.00;161.67
1194.00;159.45
1196.00;156.79
1198.00;151.58
1200.00;154.88
1202.00;149.88
1204.00;143.47
1206.00;141.46
1208.00;139.98
1210.00;135.09
1212.00;131.67
1214.00;126.28
1216.00;126.68
1218.00;125.82
1220.00;125.20
1222.00;121.54
1224.00;126.62
1226.00;130.41
1228.00;134.44
1230.00;137.26
1232.00;137.43
1234.00;142.33
1236.00;145.32
1238.00;147.18
1240.00;143.15
1242.00;142.55
1244.00;138.75
1246.00;137.76
1248.00;131.45
1250.00;126.51
1252.00;125.44
1254.00;113.12
1256.00;115.44
1258.00;105.19
1260.00;104.87
1262.00;107.57
1264.00;100.14
1266.00;101.15
1268.00;101.87
1270.00;96.49
1272.00;100.02
1274.00;96.21
1276.00;91.56
1278.00;88.61
1280.00;91.40
1282.00;89.24
1284.00;91.96
1286.00;91.44
1288.00;87.48
1290.00;86.99
1292.00;84.75
1294.00;90.71
1296.00;91.14
1298.00;90.40
1300.00;91.39
1302.00;93.15
1304.00;92.83
1306.00;95.74
1308.00;97.57
1310.00;99.74
1312.00;101.22
1314.00;106.76
1316.00;105.55
1318.00;106.18
1320.00;110.34
1322.00;111.05
1324.00;111.67
1326.00;113.12
1328.00;108.46
1330.00;110.82
1332.00;108.55
1334.00;105.52
1336.00;107.07
1338.00;104.24
1340.00;104.70
1342.00;100.80
1344.00;98.14
1346.00;96.19
1348.00;96.98
1350.00;94.62
1352.00;99.16
1354.00;94.64
1356.00;94.74
1358.00;91.21
1360.00;95.36
1362.00;94.60
1364.00;95.18
1366.00;97.12
1368.00;94.48
1370.00;92.25
1372.00;94.06
1374.00;99.92
1376.00;98.66
1378.00;101.32
1380.00;103.04
1382.00;107.84
1384.00;114.77
1386.00;117.63
1388.00;120.29
1390.00;119.03
1392.00;119.82
1394.00;116.88
1396.00;115.88
1398.00;115.64
1400.00;113.63
1402.00;112.20
1404.00;103.82
1406.00;105.58
1408.00;105.79
1410.00;110.08
1412.00;109.73
1414.00;114.18
1416.00;118.58
1418.00;119.23
1420.00;126.63
1422.00;137.71
1424.00;143.59
1426.00;163.95
1428.00;175.94
1430.00;186.55
1432.00;211.58
1434.00;226.47
1436.00;252.51
1438.00;272.31
1440.00;299.48
1442.00;324.29
1444.00;348.87
1446.00;367.26
1448.00;389.45
1450.00;394.57
1452.00;389.14
1454.00;382.20
1456.00;375.13
1458.00;364.23
1460.00;356.31
1462.00;337.92
1464.00;316.26
1466.00;296.67
1468.00;278.91
1470.00;248.11
1472.00;229.63
1474.00;217.77
1476.00;207.57
1478.00;193.72
1480.00;192.61
1482.00;194.50
1484.00;187.81
1486.00;181.38
1488.00;177.11
1490.00;169.04
1492.00;157.95
1494.00;147.24
1496.00;133.55
1498.00;122.01
1500.00;114.40
1502.00;114.13
1504.00;101.83
1506.00;101.22
1508.00;97.71
1510.00;95.96
1512.00;92.92
1514.00;90.73
1516.00;93.16
1518.00;92.39
1520.00;91.53
1522.00;89.35
1524.00;92.67
1526.00;84.94
1528.00;87.47
1530.00;89.08
1532.00;82.73
1534.00;94.32
1536.00;82.01
1538.00;85.82
1540.00;81.89
1542.00;86.55
1544.00;85.29
1546.00;84.06
1548.00;86.77
1550.00;85.54
1552.00;80.46
1554.00;85.02
1556.00;86.38
1558.00;85.55
1560.00;84.66
1562.00;83.54
1564.00;78.98
1566.00;85.30
1568.00;85.06
1570.00;91.23
1572.00;83.34
1574.00;83.60
1576.00;86.44
1578.00;84.56
1580.00;87.02
1582.00;85.90
1584.00;91.54
1586.00;88.08
1588.00;93.86
1590.00;95.98
1592.00;98.15
1594.00;104.82
1596.00;115.34
1598.00;127.03
1600.00;139.43
1602.00;143.98
1604.00;132.80
1606.00;120.70
1608.00;112.46
1610.00;103.45
1612.00;100.40
1614.00;96.26
1616.00;92.02
1618.00;92.70
1620.00;90.76
1622.00;90.09
1624.00;89.99
1626.00;84.75
1628.00;86.25
1630.00;87.77
1632.00;84.24
1634.00;81.89
1636.00;84.63
1638.00;87.78
1640.00;85.30
1642.00;88.36
1644.00;84.24
1646.00;76.62
1648.00;76.82
1650.00;74.06
1652.00;70.12
1654.00;75.96
1656.00;77.23
1658.00;70.34
1660.00;74.82
1662.00;76.24
1664.00;72.51
1666.00;77.13
1668.00;76.09
1670.00;71.38
1672.00;78.84
1674.00;76.97
1676.00;77.11
1678.00;82.06
1680.00;76.32
1682.00;79.45
1684.00;78.07
1686.00;81.47
1688.00;77.32
1690.00;79.14
1692.00;78.43
1694.00;85.21
1696.00;82.16
1698.00;87.39
1700.00;91.29
1702.00;88.47
1704.00;92.75
1706.00;94.22
1708.00;102.29
1710.00;111.58
1712.00;114.45
1714.00;129.65
1716.00;150.89
1718.00;161.10
1720.00;195.32
1722.00;190.74
1724.00;216.55
1726.00;217.72
1728.00;221.05
1730.00;222.26
1732.00;213.25
1734.00;203.71
1736.00;198.68
1738.00;184.24
1740.00;174.35
1742.00;166.44
1744.00;160.57
1746.00;141.98
1748.00;122.90
1750.00;117.32
1752.00;111.04
1754.00;98.21
1756.00;94.77
1758.00;88.71
1760.00;86.02
1762.00;83.66
1764.00;74.97
1766.00;80.23
1768.00;74.64
1770.00;76.80
1772.00;73.92
1774.00;75.76
1776.00;77.09
1778.00;76.27
1780.00;73.26
1782.00;81.45
1784.00;78.82
1786.00;86.04
1788.00;78.49
1790.00;86.48
1792.00;85.18
1794.00;81.82
1796.00;79.42
1798.00;73.76
1800.00;74.07
1802.00;78.93
1804.00;66.37
1806.00;75.49
1808.00;66.68
1810.00;73.97
1812.00;71.28
1814.00;68.82
1816.00;72.30
1818.00;64.89
1820.00;65.20
1822.00;72.60
1824.00;69.08
1826.00;67.12
1828.00;65.42
1830.00;63.54
1832.00;64.80
1834.00;63.29
1836.00;69.39
1838.00;63.12
1840.00;69.41
1842.00;66.92
1844.00;66.56
1846.00;61.62
1848.00;61.01
1850.00;67.54
1852.00;64.84
1854.00;59.33
1856.00;59.78
1858.00;63.64
1860.00;60.29
1862.00;59.29
1864.00;64.52
1866.00;72.87
1868.00;69.86
1870.00;62.88
1872.00;62.91
1874.00;54.64
1876.00;61.18
1878.00;60.69
1880.00;62.73
1882.00;58.51
1884.00;60.63
1886.00;62.37
1888.00;69.18
1890.00;66.97
1892.00;55.40
1894.00;59.79
1896.00;64.38
1898.00;65.77
1900.00;62.89
1902.00;63.86
1904.00;61.20
1906.00;65.05
1908.00;68.96
1910.00;75.67
1912.00;67.27
1914.00;62.85
1916.00;58.47
1918.00;63.24
1920.00;62.95
1922.00;61.87
1924.00;59.54
1926.00;70.10
1928.00;58.05
1930.00;62.36
1932.00;61.09
1934.00;61.14
1936.00;58.81
1938.00;65.53
1940.00;67.06
1942.00;64.72
1944.00;62.44
1946.00;62.32
1948.00;58.26
1950.00;64.98
1952.00;55.87
1954.00;65.84
1956.00;58.13
1958.00;65.20
1960.00;58.38
1962.00;63.78
1964.00;66.09
1966.00;64.11
1968.00;54.95
1970.00;64.12
1972.00;64.69
1974.00;65.45
1976.00;59.18
1978.00;67.06
1980.00;55.77
1982.00;53.58
1984.00;57.06
1986.00;61.38
1988.00;68.54
1990.00;68.40
1992.00;57.85
1994.00;61.30
1996.00;59.17
1998.00;69.65
2000.00;67.91
2002.00;63.07
2004.00;65.84
2006.00;56.82
2008.00;60.12
2010.00;64.72
2012.00;67.58
2014.00;60.22
2016.00;54.28
2018.00;67.03
2020.00;62.22
2022.00;58.61
2024.00;67.15
2026.00;73.07
2028.00;67.73
2030.00;58.32
2032.00;60.73
2034.00;61.32
2036.00;62.67
2038.00;61.25
2040.00;66.28
2042.00;56.20
2044.00;66.69
2046.00;64.91
2048.00;56.75
2050.00;63.95
2052.00;56.49
2054.00;74.79
2056.00;60.10
2058.00;65.30
2060.00;61.15
2062.00;68.25
2064.00;55.51
2066.00;62.60
2068.00;62.80
2070.00;73.00
2072.00;68.62
2074.00;63.21
2076.00;62.01
2078.00;70.93
2080.00;58.53
2082.00;63.25
2084.00;61.82
2086.00;61.33
2088.00;75.57
2090.00;67.04
2092.00;65.08
2094.00;63.61
2096.00;61.17
2098.00;61.75
2100.00;66.42
2102.00;67.38
2104.00;62.58
2106.00;63.48
2108.00;50.10
2110.00;57.08
2112.00;76.20
2114.00;55.26
2116.00;68.22
2118.00;60.91
2120.00;65.40
2122.00;65.89
2124.00;63.57
2126.00;64.01
2128.00;57.62
2130.00;66.58
2132.00;58.55
2134.00;61.06
2136.00;59.41
2138.00;58.49
2140.00;66.18
2142.00;70.31
2144.00;63.76
2146.00;55.07
2148.00;56.45
2150.00;61.79
2152.00;59.63
2154.00;63.90
2156.00;55.66
2158.00;56.92
2160.00;55.54
2162.00;55.20
2164.00;74.45
2166.00;72.70
2168.00;65.18
2170.00;70.13
2172.00;71.02
2174.00;66.31
2176.00;65.09
2178.00;61.91
2180.00;70.42
2182.00;64.27
2184.00;68.97
2186.00;53.51
2188.00;59.87
2190.00;79.82
2192.00;71.45
2194.00;68.26
2196.00;72.38
2198.00;72.21
2200.00;73.90
2202.00;61.69
2204.00;65.82
2206.00;64.43
2208.00;69.70
2210.00;66.20
2212.00;66.30
2214.00;77.46
2216.00;59.38
2218.00;80.48
2220.00;55.83
2222.00;63.73
2224.00;72.34
2226.00;72.94
2228.00;77.92
2230.00;62.28
2232.00;68.03
2234.00;67.13
2236.00;68.48
2238.00;75.10
2240.00;65.93
2242.00;70.33
2244.00;66.29
2246.00;69.20
2248.00;58.26
2250.00;77.52
2252.00;78.05
2254.00;49.44
2256.00;58.91
2258.00;66.34
2260.00;70.94
2262.00;63.76
2264.00;50.39
2266.00;79.17
2268.00;59.26
2270.00;76.42
2272.00;73.55
2274.00;58.84
2276.00;71.44
2278.00;64.34
2280.00;76.18
2282.00;87.84
2284.00;50.90
2286.00;82.83
2288.00;75.88
2290.00;79.68
2292.00;76.21
2294.00;73.24
2296.00;71.78
2298.00;88.53
2300.00;55.00
[ANALYSIS RESULT]
Analysis_Type;None