File: 114-CorticalBoneElasticity/Group2/01_Raman/data/pmma.csv
AP Cora 5001
Software_Version;1.4.1
[SAMPLE]
Sample_Name;pmma
Method;
[PARAMETERS]
Instrument_Type;Cora 5001
Instrument_SN;99119713
Last_SST;3/28/2024 12:19:13 PM +00:00
User_Name;labmanager
Measurement_Started;3/28/2024 3:01:18 PM
Measurement_Finished;3/28/2024 3:01:39 PM
Measurement_Saved;3/28/2024 3:01:39 PM
Wavelength;785
Laser_Power;50
Auto_Exposure;False
Exposure_Time;10000
Averaged_Spectra;1
Probe_Type;Regular Probe (785 nm)
Probe_SN;99101107
Dark_Background;True
User_Background_Spectrum;
Spike_Removal;False
Baseline_Correction;True
Smoothing;False
Normalization;None
[SPECTRUM QUALITY]
Quality_Saturation;False
Quality_SBR;0.56
Quality_Temperature;False
[SPECTRUM]
100.00;8608.68
102.00;8290.79
104.00;7965.86
106.00;7577.67
108.00;7136.54
110.00;6701.51
112.00;6229.47
114.00;5712.12
116.00;5213.16
118.00;4727.11
120.00;4252.96
122.00;3815.09
124.00;3400.10
126.00;3010.02
128.00;2639.24
130.00;2311.38
132.00;2014.34
134.00;1754.23
136.00;1507.76
138.00;1286.49
140.00;1109.55
142.00;946.21
144.00;806.18
146.00;687.47
148.00;590.14
150.00;507.22
152.00;434.52
154.00;373.82
156.00;317.36
158.00;273.74
160.00;228.00
162.00;193.11
164.00;158.42
166.00;141.40
168.00;119.13
170.00;100.91
172.00;92.00
174.00;74.95
176.00;61.62
178.00;53.80
180.00;48.75
182.00;41.47
184.00;30.35
186.00;26.58
188.00;19.99
190.00;18.09
192.00;8.81
194.00;13.51
196.00;5.66
198.00;4.22
200.00;1.99
202.00;2.12
204.00;4.87
206.00;-1.81
208.00;3.04
210.00;-1.60
212.00;-6.42
214.00;-2.69
216.00;-1.49
218.00;-1.77
220.00;-0.84
222.00;-6.71
224.00;-6.76
226.00;0.14
228.00;-5.42
230.00;-5.35
232.00;1.23
234.00;-0.28
236.00;2.22
238.00;2.18
240.00;-4.65
242.00;-5.26
244.00;-3.10
246.00;-10.73
248.00;-1.02
250.00;-5.08
252.00;-9.92
254.00;-6.54
256.00;-10.14
258.00;-15.02
260.00;-12.89
262.00;-12.34
264.00;-10.95
266.00;-8.01
268.00;-5.68
270.00;-2.38
272.00;-4.94
274.00;-4.65
276.00;1.62
278.00;5.03
280.00;8.92
282.00;12.14
284.00;17.04
286.00;19.61
288.00;22.56
290.00;31.50
292.00;26.35
294.00;24.43
296.00;29.80
298.00;31.63
300.00;32.20
302.00;30.51
304.00;32.47
306.00;26.94
308.00;25.27
310.00;14.41
312.00;12.07
314.00;10.70
316.00;2.90
318.00;6.17
320.00;3.29
322.00;-2.15
324.00;-4.09
326.00;1.30
328.00;-2.51
330.00;-1.81
332.00;-1.04
334.00;1.19
336.00;1.37
338.00;6.01
340.00;9.53
342.00;14.00
344.00;20.67
346.00;30.73
348.00;32.08
350.00;33.55
352.00;45.43
354.00;53.48
356.00;63.23
358.00;74.83
360.00;84.40
362.00;87.15
364.00;91.92
366.00;92.85
368.00;90.43
370.00;96.72
372.00;95.47
374.00;85.94
376.00;76.97
378.00;74.01
380.00;72.62
382.00;62.25
384.00;69.35
386.00;59.55
388.00;52.45
390.00;44.27
392.00;40.54
394.00;35.61
396.00;34.98
398.00;29.82
400.00;20.84
402.00;16.01
404.00;12.62
406.00;11.30
408.00;3.51
410.00;0.28
412.00;-1.54
414.00;-3.39
416.00;-3.05
418.00;-5.03
420.00;-4.92
422.00;-12.29
424.00;-9.25
426.00;-10.38
428.00;-12.19
430.00;-9.15
432.00;-14.97
434.00;-10.47
436.00;-7.06
438.00;-8.13
440.00;-9.94
442.00;-7.08
444.00;-7.13
446.00;-10.28
448.00;-9.67
450.00;-10.63
452.00;-7.69
454.00;2.56
456.00;-1.67
458.00;4.57
460.00;14.18
462.00;13.30
464.00;11.17
466.00;24.14
468.00;29.86
470.00;36.65
472.00;45.07
474.00;57.84
476.00;62.70
478.00;72.99
480.00;78.71
482.00;91.38
484.00;87.66
486.00;85.64
488.00;86.86
490.00;79.61
492.00;74.31
494.00;70.06
496.00;59.11
498.00;50.93
500.00;47.11
502.00;40.52
504.00;39.56
506.00;37.42
508.00;24.48
510.00;22.50
512.00;15.10
514.00;5.62
516.00;8.09
518.00;0.65
520.00;0.16
522.00;-0.27
524.00;2.14
526.00;-6.00
528.00;-3.20
530.00;2.00
532.00;-7.50
534.00;-3.55
536.00;1.28
538.00;-1.22
540.00;4.61
542.00;3.63
544.00;10.98
546.00;13.99
548.00;24.03
550.00;31.98
552.00;37.26
554.00;35.48
556.00;41.41
558.00;49.59
560.00;43.66
562.00;47.58
564.00;51.15
566.00;47.20
568.00;51.63
570.00;50.51
572.00;57.13
574.00;64.61
576.00;69.54
578.00;72.26
580.00;85.89
582.00;105.34
584.00;123.24
586.00;141.40
588.00;164.83
590.00;196.15
592.00;228.12
594.00;255.52
596.00;291.35
598.00;318.43
600.00;333.96
602.00;333.72
604.00;307.42
606.00;273.32
608.00;241.36
610.00;207.06
612.00;174.47
614.00;156.55
616.00;136.80
618.00;119.19
620.00;102.74
622.00;77.18
624.00;68.11
626.00;57.92
628.00;54.17
630.00;39.56
632.00;35.06
634.00;37.00
636.00;33.32
638.00;27.27
640.00;28.36
642.00;22.76
644.00;18.36
646.00;23.45
648.00;17.15
650.00;12.64
652.00;10.54
654.00;13.00
656.00;7.44
658.00;8.74
660.00;8.05
662.00;11.83
664.00;8.03
666.00;5.08
668.00;-0.03
670.00;-4.35
672.00;-0.41
674.00;-0.13
676.00;-0.73
678.00;-3.41
680.00;-8.21
682.00;-5.95
684.00;-8.56
686.00;-9.28
688.00;-7.34
690.00;-7.42
692.00;-13.57
694.00;-5.60
696.00;-11.06
698.00;-9.73
700.00;-9.24
702.00;-11.80
704.00;-16.08
706.00;-16.08
708.00;-14.85
710.00;-12.57
712.00;-10.13
714.00;-7.42
716.00;-8.04
718.00;-4.48
720.00;-11.33
722.00;-11.15
724.00;-1.27
726.00;6.03
728.00;11.56
730.00;10.25
732.00;14.33
734.00;12.54
736.00;11.78
738.00;11.07
740.00;6.22
742.00;5.18
744.00;-4.51
746.00;-10.39
748.00;-5.57
750.00;-5.12
752.00;-4.04
754.00;-1.00
756.00;1.05
758.00;4.97
760.00;5.51
762.00;12.69
764.00;12.20
766.00;12.94
768.00;21.46
770.00;21.40
772.00;23.39
774.00;28.62
776.00;28.05
778.00;24.35
780.00;27.54
782.00;33.63
784.00;36.15
786.00;43.85
788.00;46.87
790.00;49.17
792.00;59.22
794.00;71.26
796.00;92.08
798.00;114.27
800.00;152.66
802.00;213.94
804.00;297.42
806.00;422.36
808.00;577.46
810.00;717.10
812.00;785.62
814.00;714.54
816.00;549.94
818.00;378.94
820.00;258.69
822.00;179.12
824.00;120.83
826.00;88.48
828.00;51.89
830.00;47.25
832.00;34.98
834.00;25.45
836.00;23.58
838.00;30.91
840.00;30.77
842.00;24.34
844.00;28.94
846.00;22.62
848.00;19.33
850.00;9.75
852.00;4.14
854.00;-1.94
856.00;0.15
858.00;-11.21
860.00;-9.79
862.00;-7.02
864.00;-2.84
866.00;0.62
868.00;-4.96
870.00;-4.43
872.00;-0.48
874.00;10.98
876.00;5.28
878.00;9.20
880.00;1.53
882.00;-2.42
884.00;1.16
886.00;1.46
888.00;-2.03
890.00;-1.15
892.00;-1.04
894.00;0.99
896.00;7.75
898.00;6.45
900.00;13.06
902.00;20.13
904.00;20.02
906.00;27.84
908.00;38.05
910.00;41.22
912.00;44.37
914.00;47.85
916.00;39.33
918.00;29.26
920.00;35.42
922.00;27.01
924.00;29.02
926.00;33.16
928.00;32.61
930.00;30.04
932.00;35.24
934.00;43.46
936.00;41.59
938.00;45.36
940.00;53.12
942.00;57.95
944.00;67.92
946.00;78.95
948.00;88.22
950.00;99.51
952.00;121.82
954.00;147.92
956.00;173.24
958.00;199.73
960.00;221.89
962.00;250.45
964.00;268.30
966.00;288.12
968.00;283.57
970.00;275.72
972.00;268.78
974.00;262.84
976.00;258.75
978.00;257.84
980.00;268.73
982.00;276.21
984.00;283.23
986.00;290.88
988.00;293.97
990.00;287.13
992.00;277.92
994.00;271.60
996.00;277.05
998.00;278.52
1000.00;275.87
1002.00;253.28
1004.00;200.02
1006.00;126.08
1008.00;76.36
1010.00;37.35
1012.00;13.31
1014.00;0.81
1016.00;2.26
1018.00;1.66
1020.00;5.04
1022.00;2.98
1024.00;1.38
1026.00;-3.85
1028.00;-11.93
1030.00;-4.57
1032.00;-15.33
1034.00;-24.78
1036.00;-15.73
1038.00;-21.78
1040.00;-20.79
1042.00;-17.03
1044.00;-20.46
1046.00;-16.49
1048.00;-12.03
1050.00;-9.81
1052.00;-9.90
1054.00;-3.10
1056.00;-0.02
1058.00;6.39
1060.00;14.73
1062.00;22.84
1064.00;18.03
1066.00;15.35
1068.00;16.12
1070.00;14.02
1072.00;3.77
1074.00;8.54
1076.00;1.21
1078.00;-2.68
1080.00;0.97
1082.00;5.95
1084.00;3.97
1086.00;5.92
1088.00;3.19
1090.00;4.91
1092.00;8.48
1094.00;11.56
1096.00;19.76
1098.00;21.09
1100.00;28.59
1102.00;35.97
1104.00;43.19
1106.00;47.60
1108.00;57.97
1110.00;69.80
1112.00;81.04
1114.00;82.72
1116.00;94.73
1118.00;107.82
1120.00;115.12
1122.00;115.04
1124.00;110.11
1126.00;101.05
1128.00;93.86
1130.00;82.26
1132.00;77.23
1134.00;60.59
1136.00;63.36
1138.00;56.18
1140.00;58.06
1142.00;58.77
1144.00;55.55
1146.00;63.54
1148.00;68.47
1150.00;82.14
1152.00;87.16
1154.00;92.27
1156.00;105.21
1158.00;106.23
1160.00;108.67
1162.00;101.15
1164.00;96.68
1166.00;88.26
1168.00;67.43
1170.00;80.28
1172.00;100.35
1174.00;109.21
1176.00;118.21
1178.00;121.07
1180.00;129.48
1182.00;130.59
1184.00;125.79
1186.00;131.39
1188.00;123.74
1190.00;117.96
1192.00;105.88
1194.00;114.02
1196.00;101.14
1198.00;103.97
1200.00;93.92
1202.00;87.62
1204.00;85.77
1206.00;79.82
1208.00;71.28
1210.00;67.11
1212.00;66.72
1214.00;57.65
1216.00;50.37
1218.00;54.21
1220.00;54.36
1222.00;49.72
1224.00;58.54
1226.00;60.80
1228.00;59.06
1230.00;70.70
1232.00;72.72
1234.00;85.15
1236.00;85.79
1238.00;81.65
1240.00;78.70
1242.00;83.78
1244.00;77.41
1246.00;66.16
1248.00;54.15
1250.00;58.66
1252.00;54.12
1254.00;38.10
1256.00;27.42
1258.00;20.98
1260.00;16.84
1262.00;16.20
1264.00;10.92
1266.00;12.48
1268.00;12.66
1270.00;4.77
1272.00;6.42
1274.00;3.34
1276.00;1.70
1278.00;-2.42
1280.00;-4.02
1282.00;-15.20
1284.00;-11.02
1286.00;-9.77
1288.00;-12.14
1290.00;-9.26
1292.00;-14.80
1294.00;-9.09
1296.00;-12.34
1298.00;-11.14
1300.00;-3.25
1302.00;-0.27
1304.00;-4.86
1306.00;-4.00
1308.00;13.34
1310.00;1.44
1312.00;11.61
1314.00;16.72
1316.00;14.75
1318.00;22.93
1320.00;24.56
1322.00;30.04
1324.00;27.17
1326.00;29.49
1328.00;21.68
1330.00;23.43
1332.00;22.72
1334.00;15.75
1336.00;13.21
1338.00;11.76
1340.00;0.02
1342.00;-1.88
1344.00;5.06
1346.00;-4.66
1348.00;-9.87
1350.00;-8.32
1352.00;-5.07
1354.00;-6.92
1356.00;-11.93
1358.00;-10.41
1360.00;-6.53
1362.00;-0.59
1364.00;-7.07
1366.00;-5.70
1368.00;-9.72
1370.00;-4.22
1372.00;-9.35
1374.00;-3.04
1376.00;-1.94
1378.00;-7.58
1380.00;8.28
1382.00;7.34
1384.00;15.25
1386.00;23.77
1388.00;27.51
1390.00;25.16
1392.00;20.66
1394.00;29.65
1396.00;19.73
1398.00;11.78
1400.00;10.39
1402.00;18.19
1404.00;10.78
1406.00;10.20
1408.00;5.87
1410.00;10.42
1412.00;5.51
1414.00;20.83
1416.00;10.13
1418.00;23.98
1420.00;38.16
1422.00;53.24
1424.00;75.26
1426.00;103.77
1428.00;117.14
1430.00;146.14
1432.00;178.22
1434.00;210.45
1436.00;241.26
1438.00;279.91
1440.00;322.01
1442.00;365.88
1444.00;405.42
1446.00;447.64
1448.00;474.40
1450.00;475.41
1452.00;480.38
1454.00;469.58
1456.00;454.69
1458.00;439.68
1460.00;412.81
1462.00;386.53
1464.00;352.95
1466.00;320.38
1468.00;271.37
1470.00;244.02
1472.00;211.40
1474.00;194.51
1476.00;173.75
1478.00;167.18
1480.00;159.94
1482.00;147.90
1484.00;153.23
1486.00;147.54
1488.00;128.08
1490.00;117.48
1492.00;99.41
1494.00;76.43
1496.00;51.60
1498.00;46.45
1500.00;40.05
1502.00;34.85
1504.00;15.85
1506.00;11.29
1508.00;9.77
1510.00;8.34
1512.00;2.55
1514.00;4.49
1516.00;5.66
1518.00;-7.60
1520.00;4.73
1522.00;-6.44
1524.00;-0.23
1526.00;-6.02
1528.00;1.71
1530.00;-6.51
1532.00;-11.96
1534.00;-0.99
1536.00;-15.46
1538.00;-7.22
1540.00;-7.02
1542.00;-2.27
1544.00;-5.34
1546.00;-12.15
1548.00;-6.41
1550.00;0.24
1552.00;0.32
1554.00;-5.09
1556.00;-1.07
1558.00;-8.09
1560.00;-3.36
1562.00;-3.68
1564.00;-2.88
1566.00;-5.40
1568.00;-1.42
1570.00;2.26
1572.00;-3.84
1574.00;-1.87
1576.00;-12.66
1578.00;11.79
1580.00;-3.01
1582.00;5.92
1584.00;13.13
1586.00;11.10
1588.00;13.02
1590.00;12.10
1592.00;25.91
1594.00;30.13
1596.00;51.36
1598.00;66.16
1600.00;87.91
1602.00;91.83
1604.00;70.70
1606.00;61.72
1608.00;48.89
1610.00;36.83
1612.00;18.98
1614.00;20.55
1616.00;15.65
1618.00;17.60
1620.00;8.04
1622.00;8.85
1624.00;6.05
1626.00;-2.39
1628.00;3.92
1630.00;1.01
1632.00;4.14
1634.00;4.79
1636.00;4.57
1638.00;13.12
1640.00;6.74
1642.00;0.86
1644.00;7.80
1646.00;-5.82
1648.00;-3.19
1650.00;-13.87
1652.00;-11.01
1654.00;10.65
1656.00;-2.84
1658.00;-3.71
1660.00;-2.43
1662.00;-9.75
1664.00;-7.90
1666.00;-9.00
1668.00;-16.79
1670.00;3.73
1672.00;-13.71
1674.00;-10.38
1676.00;-6.20
1678.00;-14.27
1680.00;3.37
1682.00;-1.84
1684.00;1.38
1686.00;-2.61
1688.00;-8.06
1690.00;4.56
1692.00;7.73
1694.00;1.46
1696.00;0.02
1698.00;2.52
1700.00;15.81
1702.00;21.49
1704.00;19.88
1706.00;26.87
1708.00;28.50
1710.00;45.98
1712.00;61.37
1714.00;83.42
1716.00;117.26
1718.00;145.63
1720.00;177.22
1722.00;204.83
1724.00;231.09
1726.00;232.44
1728.00;218.18
1730.00;238.45
1732.00;214.22
1734.00;217.10
1736.00;197.58
1738.00;171.78
1740.00;170.80
1742.00;151.12
1744.00;125.19
1746.00;97.96
1748.00;70.41
1750.00;59.32
1752.00;54.92
1754.00;28.42
1756.00;24.93
1758.00;17.52
1760.00;12.81
1762.00;-13.70
1764.00;2.42
1766.00;1.21
1768.00;-2.06
1770.00;2.96
1772.00;4.42
1774.00;-10.58
1776.00;-6.66
1778.00;3.60
1780.00;1.60
1782.00;-1.40
1784.00;11.87
1786.00;8.72
1788.00;10.69
1790.00;13.69
1792.00;8.41
1794.00;18.02
1796.00;-1.77
1798.00;10.64
1800.00;-5.02
1802.00;-2.39
1804.00;4.40
1806.00;-0.90
1808.00;-1.31
1810.00;-2.14
1812.00;-2.21
1814.00;-6.68
1816.00;4.66
1818.00;4.48
1820.00;-6.34
1822.00;-8.46
1824.00;-0.13
1826.00;1.80
1828.00;1.92
1830.00;-3.91
1832.00;-2.93
1834.00;-1.06
1836.00;-5.37
1838.00;3.40
1840.00;1.32
1842.00;1.43
1844.00;-1.58
1846.00;-8.51
1848.00;1.03
1850.00;-11.82
1852.00;6.82
1854.00;-5.89
1856.00;-6.48
1858.00;-4.03
1860.00;4.27
1862.00;0.05
1864.00;11.03
1866.00;-5.93
1868.00;-1.04
1870.00;-13.39
1872.00;-3.24
1874.00;-9.48
1876.00;1.16
1878.00;-8.64
1880.00;7.88
1882.00;-2.96
1884.00;0.13
1886.00;-5.10
1888.00;6.39
1890.00;2.27
1892.00;-9.84
1894.00;-4.47
1896.00;-1.26
1898.00;0.00
1900.00;-9.63
1902.00;2.62
1904.00;2.89
1906.00;5.78
1908.00;-5.95
1910.00;3.81
1912.00;-0.40
1914.00;-7.97
1916.00;-1.03
1918.00;-3.55
1920.00;10.91
1922.00;0.82
1924.00;12.63
1926.00;7.58
1928.00;11.30
1930.00;0.57
1932.00;-1.51
1934.00;-6.37
1936.00;-5.41
1938.00;2.85
1940.00;13.50
1942.00;-4.49
1944.00;7.53
1946.00;-1.98
1948.00;7.98
1950.00;2.63
1952.00;-2.41
1954.00;-3.67
1956.00;17.10
1958.00;-0.35
1960.00;0.26
1962.00;-4.51
1964.00;-0.31
1966.00;3.71
1968.00;-5.44
1970.00;5.18
1972.00;-7.21
1974.00;-1.44
1976.00;-1.52
1978.00;-1.44
1980.00;-3.51
1982.00;3.39
1984.00;4.48
1986.00;-6.49
1988.00;-3.05
1990.00;4.30
1992.00;15.46
1994.00;1.67
1996.00;-6.20
1998.00;3.11
2000.00;-12.66
2002.00;8.26
2004.00;-4.89
2006.00;0.89
2008.00;2.36
2010.00;-0.05
2012.00;-4.17
2014.00;-2.90
2016.00;9.12
2018.00;-16.21
2020.00;6.10
2022.00;-6.07
2024.00;-6.57
2026.00;-9.81
2028.00;6.18
2030.00;-5.44
2032.00;-5.56
2034.00;10.35
2036.00;-4.47
2038.00;9.09
2040.00;1.30
2042.00;-4.67
2044.00;-13.16
2046.00;3.05
2048.00;6.48
2050.00;-6.43
2052.00;5.83
2054.00;-24.81
2056.00;-6.30
2058.00;19.25
2060.00;-1.76
2062.00;-1.54
2064.00;21.97
2066.00;-2.17
2068.00;-4.49
2070.00;-7.82
2072.00;11.42
2074.00;-4.06
2076.00;5.29
2078.00;-6.14
2080.00;11.14
2082.00;-10.09
2084.00;-2.94
2086.00;27.03
2088.00;9.29
2090.00;-8.24
2092.00;5.85
2094.00;11.41
2096.00;5.25
2098.00;9.97
2100.00;-6.96
2102.00;18.96
2104.00;-21.09
2106.00;10.93
2108.00;16.71
2110.00;1.36
2112.00;7.02
2114.00;-7.23
2116.00;0.22
2118.00;12.71
2120.00;2.84
2122.00;-7.31
2124.00;-3.83
2126.00;-15.58
2128.00;0.56
2130.00;-2.48
2132.00;-14.72
2134.00;0.47
2136.00;-4.04
2138.00;9.07
2140.00;15.13
2142.00;-0.23
2144.00;-12.91
2146.00;-4.98
2148.00;6.78
2150.00;-7.26
2152.00;-20.09
2154.00;5.59
2156.00;9.94
2158.00;-6.33
2160.00;-9.32
2162.00;2.08
2164.00;-18.90
2166.00;0.11
2168.00;28.56
2170.00;3.13
2172.00;4.41
2174.00;-8.73
2176.00;-6.43
2178.00;-7.71
2180.00;6.02
2182.00;19.73
2184.00;-10.78
2186.00;-3.22
2188.00;5.35
2190.00;10.48
2192.00;11.90
2194.00;4.06
2196.00;-13.19
2198.00;5.67
2200.00;8.06
2202.00;13.98
2204.00;11.24
2206.00;24.74
2208.00;14.79
2210.00;-2.34
2212.00;-8.36
2214.00;12.40
2216.00;5.63
2218.00;-16.08
2220.00;8.30
2222.00;-6.63
2224.00;0.36
2226.00;1.45
2228.00;9.84
2230.00;7.06
2232.00;-5.50
2234.00;8.41
2236.00;-4.09
2238.00;-8.73
2240.00;7.67
2242.00;-14.17
2244.00;-16.99
2246.00;7.17
2248.00;-11.38
2250.00;0.39
2252.00;10.71
2254.00;-5.42
2256.00;21.53
2258.00;20.37
2260.00;8.28
2262.00;4.40
2264.00;-9.33
2266.00;-12.02
2268.00;-7.18
2270.00;-6.73
2272.00;-11.47
2274.00;23.50
2276.00;-21.18
2278.00;2.96
2280.00;-20.81
2282.00;-20.44
2284.00;-2.53
2286.00;11.81
2288.00;33.04
2290.00;1.17
2292.00;5.08
2294.00;21.27
2296.00;2.13
2298.00;-14.76
2300.00;25.14
[ANALYSIS RESULT]
Analysis_Type;None