File: 114-CorticalBoneElasticity/Group2/01_Raman/data/rubber.csv
AP Cora 5001
Software_Version;1.4.1
[SAMPLE]
Sample_Name;rubber
Method;
[PARAMETERS]
Instrument_Type;Cora 5001
Instrument_SN;99119713
Last_SST;3/28/2024 12:19:13 PM +00:00
User_Name;labmanager
Measurement_Started;3/28/2024 4:36:31 PM
Measurement_Finished;3/28/2024 4:37:32 PM
Measurement_Saved;3/28/2024 4:37:32 PM
Wavelength;785
Laser_Power;10
Auto_Exposure;False
Exposure_Time;10000
Averaged_Spectra;3
Probe_Type;Regular Probe (785 nm)
Probe_SN;99101107
Dark_Background;True
User_Background_Spectrum;
Spike_Removal;True
Baseline_Correction;False
Smoothing;False
Normalization;None
[SPECTRUM QUALITY]
Quality_Saturation;False
Quality_SBR;NaN
Quality_Temperature;False
[SPECTRUM]
100.00;7784.76
102.00;7503.19
104.00;7217.83
106.00;6936.68
108.00;6620.61
110.00;6290.41
112.00;5939.55
114.00;5581.17
116.00;5197.22
118.00;4808.74
120.00;4456.73
122.00;4099.15
124.00;3755.73
126.00;3451.00
128.00;3149.03
130.00;2878.98
132.00;2634.39
134.00;2411.76
136.00;2209.76
138.00;2028.72
140.00;1877.15
142.00;1738.95
144.00;1616.34
146.00;1513.52
148.00;1418.79
150.00;1331.54
152.00;1266.79
154.00;1207.44
156.00;1142.39
158.00;1090.67
160.00;1037.02
162.00;994.05
164.00;960.00
166.00;929.54
168.00;895.94
170.00;864.33
172.00;837.70
174.00;813.80
176.00;793.41
178.00;771.47
180.00;752.95
182.00;737.29
184.00;716.86
186.00;703.00
188.00;688.59
190.00;671.00
192.00;662.26
194.00;653.06
196.00;635.59
198.00;627.85
200.00;614.18
202.00;607.76
204.00;605.18
206.00;605.85
208.00;602.13
210.00;595.29
212.00;592.30
214.00;589.56
216.00;589.66
218.00;593.94
220.00;589.90
222.00;589.41
224.00;586.83
226.00;581.42
228.00;585.42
230.00;583.59
232.00;582.97
234.00;579.86
236.00;584.51
238.00;589.71
240.00;587.77
242.00;590.14
244.00;590.06
246.00;591.09
248.00;599.69
250.00;604.36
252.00;614.03
254.00;626.87
256.00;635.56
258.00;647.45
260.00;660.63
262.00;673.00
264.00;689.94
266.00;714.24
268.00;736.08
270.00;753.35
272.00;784.50
274.00;815.90
276.00;840.56
278.00;856.99
280.00;868.31
282.00;876.10
284.00;864.82
286.00;849.22
288.00;828.64
290.00;804.85
292.00;778.71
294.00;757.17
296.00;735.45
298.00;716.83
300.00;702.71
302.00;683.95
304.00;676.28
306.00;659.71
308.00;644.80
310.00;632.37
312.00;616.52
314.00;595.14
316.00;584.46
318.00;573.22
320.00;559.57
322.00;554.82
324.00;552.37
326.00;547.10
328.00;545.21
330.00;542.57
332.00;542.50
334.00;539.01
336.00;534.92
338.00;536.78
340.00;536.26
342.00;537.53
344.00;536.38
346.00;539.07
348.00;539.85
350.00;536.68
352.00;541.33
354.00;543.51
356.00;542.88
358.00;543.09
360.00;542.70
362.00;541.10
364.00;540.68
366.00;538.90
368.00;536.81
370.00;536.71
372.00;532.41
374.00;528.67
376.00;524.92
378.00;524.93
380.00;520.77
382.00;519.45
384.00;524.22
386.00;522.60
388.00;521.49
390.00;518.42
392.00;515.75
394.00;521.60
396.00;519.61
398.00;526.59
400.00;525.03
402.00;523.43
404.00;525.16
406.00;528.14
408.00;527.20
410.00;533.17
412.00;535.37
414.00;534.96
416.00;540.81
418.00;543.96
420.00;548.09
422.00;550.14
424.00;556.69
426.00;565.49
428.00;565.77
430.00;573.61
432.00;587.92
434.00;590.82
436.00;596.88
438.00;605.74
440.00;614.68
442.00;618.47
444.00;621.50
446.00;621.26
448.00;624.88
450.00;620.75
452.00;612.84
454.00;605.11
456.00;597.51
458.00;588.31
460.00;575.89
462.00;561.57
464.00;551.14
466.00;536.96
468.00;525.11
470.00;510.74
472.00;505.84
474.00;494.65
476.00;479.41
478.00;474.26
480.00;466.37
482.00;453.60
484.00;452.54
486.00;445.12
488.00;439.05
490.00;437.10
492.00;432.72
494.00;433.30
496.00;430.81
498.00;428.68
500.00;424.33
502.00;421.74
504.00;417.73
506.00;419.32
508.00;421.01
510.00;417.46
512.00;420.51
514.00;417.24
516.00;415.81
518.00;417.93
520.00;418.70
522.00;416.01
524.00;416.25
526.00;419.90
528.00;418.28
530.00;418.81
532.00;421.59
534.00;417.58
536.00;418.41
538.00;419.27
540.00;420.53
542.00;422.49
544.00;424.14
546.00;426.46
548.00;426.72
550.00;425.70
552.00;427.06
554.00;428.78
556.00;428.82
558.00;431.93
560.00;436.85
562.00;435.71
564.00;436.26
566.00;439.39
568.00;443.62
570.00;443.09
572.00;448.65
574.00;451.51
576.00;458.94
578.00;462.54
580.00;466.05
582.00;470.07
584.00;477.38
586.00;479.83
588.00;487.09
590.00;495.53
592.00;508.03
594.00;523.09
596.00;537.19
598.00;549.61
600.00;563.18
602.00;578.84
604.00;595.16
606.00;616.60
608.00;630.47
610.00;643.51
612.00;647.36
614.00;653.86
616.00;651.04
618.00;649.82
620.00;651.35
622.00;640.43
624.00;639.96
626.00;637.04
628.00;636.20
630.00;634.47
632.00;637.45
634.00;639.93
636.00;634.70
638.00;622.40
640.00;617.90
642.00;611.71
644.00;610.33
646.00;606.93
648.00;599.56
650.00;597.68
652.00;586.15
654.00;556.39
656.00;531.32
658.00;506.64
660.00;484.21
662.00;476.13
664.00;462.59
666.00;456.15
668.00;448.19
670.00;446.14
672.00;449.00
674.00;450.36
676.00;456.86
678.00;463.37
680.00;468.50
682.00;472.84
684.00;479.68
686.00;484.69
688.00;492.94
690.00;500.96
692.00;513.16
694.00;511.31
696.00;519.82
698.00;520.01
700.00;518.77
702.00;523.32
704.00;526.79
706.00;536.81
708.00;565.20
710.00;596.22
712.00;602.72
714.00;583.29
716.00;535.09
718.00;494.81
720.00;465.47
722.00;443.80
724.00;428.40
726.00;417.09
728.00;404.47
730.00;395.04
732.00;388.74
734.00;382.24
736.00;380.71
738.00;378.45
740.00;376.29
742.00;375.84
744.00;373.64
746.00;373.70
748.00;370.94
750.00;367.23
752.00;368.29
754.00;368.53
756.00;370.76
758.00;367.45
760.00;368.55
762.00;371.12
764.00;369.18
766.00;366.05
768.00;366.46
770.00;363.81
772.00;362.42
774.00;360.35
776.00;358.19
778.00;359.33
780.00;359.60
782.00;365.94
784.00;365.05
786.00;368.07
788.00;367.17
790.00;370.88
792.00;374.56
794.00;375.09
796.00;378.81
798.00;382.23
800.00;386.58
802.00;387.99
804.00;388.51
806.00;388.85
808.00;389.61
810.00;388.84
812.00;394.37
814.00;395.81
816.00;394.57
818.00;398.51
820.00;397.30
822.00;396.61
824.00;393.85
826.00;398.18
828.00;397.01
830.00;398.93
832.00;399.50
834.00;401.55
836.00;400.39
838.00;398.87
840.00;406.25
842.00;409.74
844.00;406.80
846.00;406.63
848.00;411.41
850.00;411.74
852.00;407.86
854.00;405.72
856.00;402.13
858.00;398.38
860.00;398.27
862.00;394.97
864.00;391.89
866.00;389.98
868.00;392.86
870.00;397.99
872.00;397.33
874.00;396.84
876.00;395.82
878.00;397.78
880.00;396.55
882.00;392.91
884.00;393.95
886.00;397.00
888.00;396.04
890.00;395.41
892.00;395.27
894.00;393.04
896.00;389.92
898.00;385.74
900.00;378.83
902.00;375.77
904.00;371.42
906.00;366.22
908.00;359.79
910.00;362.06
912.00;360.07
914.00;358.17
916.00;355.84
918.00;357.37
920.00;354.16
922.00;351.17
924.00;350.98
926.00;347.31
928.00;348.16
930.00;348.53
932.00;349.48
934.00;349.00
936.00;349.06
938.00;345.34
940.00;349.22
942.00;353.16
944.00;348.12
946.00;343.44
948.00;351.07
950.00;356.78
952.00;356.18
954.00;364.10
956.00;368.36
958.00;366.63
960.00;371.34
962.00;377.39
964.00;377.31
966.00;378.76
968.00;376.27
970.00;374.84
972.00;375.39
974.00;373.78
976.00;369.65
978.00;365.04
980.00;363.46
982.00;362.21
984.00;357.11
986.00;358.56
988.00;349.73
990.00;348.57
992.00;345.00
994.00;346.35
996.00;345.61
998.00;344.57
1000.00;342.81
1002.00;344.27
1004.00;343.89
1006.00;344.58
1008.00;347.67
1010.00;352.08
1012.00;344.63
1014.00;345.88
1016.00;352.76
1018.00;358.21
1020.00;364.08
1022.00;368.08
1024.00;372.52
1026.00;379.51
1028.00;397.80
1030.00;423.68
1032.00;455.59
1034.00;495.30
1036.00;544.37
1038.00;582.43
1040.00;597.56
1042.00;581.25
1044.00;535.74
1046.00;490.99
1048.00;454.33
1050.00;425.87
1052.00;410.79
1054.00;401.02
1056.00;394.94
1058.00;395.04
1060.00;395.89
1062.00;404.65
1064.00;404.85
1066.00;413.95
1068.00;420.72
1070.00;420.93
1072.00;430.99
1074.00;449.15
1076.00;486.18
1078.00;571.28
1080.00;745.36
1082.00;1054.20
1084.00;1438.72
1086.00;1682.63
1088.00;1587.95
1090.00;1224.16
1092.00;843.89
1094.00;612.09
1096.00;498.99
1098.00;441.97
1100.00;418.52
1102.00;399.19
1104.00;385.04
1106.00;380.49
1108.00;376.12
1110.00;375.30
1112.00;370.59
1114.00;375.71
1116.00;379.37
1118.00;388.88
1120.00;392.36
1122.00;390.10
1124.00;396.53
1126.00;396.62
1128.00;391.43
1130.00;391.31
1132.00;392.61
1134.00;382.36
1136.00;382.40
1138.00;378.37
1140.00;377.24
1142.00;369.18
1144.00;368.81
1146.00;363.88
1148.00;364.58
1150.00;363.88
1152.00;366.71
1154.00;373.57
1156.00;382.55
1158.00;398.67
1160.00;418.39
1162.00;428.92
1164.00;440.99
1166.00;438.45
1168.00;422.29
1170.00;406.75
1172.00;390.40
1174.00;379.53
1176.00;376.40
1178.00;367.08
1180.00;362.71
1182.00;362.63
1184.00;359.08
1186.00;357.73
1188.00;352.19
1190.00;351.88
1192.00;352.39
1194.00;353.43
1196.00;348.06
1198.00;346.15
1200.00;350.24
1202.00;346.94
1204.00;345.19
1206.00;345.92
1208.00;341.60
1210.00;339.67
1212.00;344.49
1214.00;347.63
1216.00;345.72
1218.00;348.74
1220.00;343.11
1222.00;343.81
1224.00;341.56
1226.00;346.12
1228.00;347.10
1230.00;351.09
1232.00;355.84
1234.00;362.58
1236.00;361.49
1238.00;363.68
1240.00;370.10
1242.00;375.47
1244.00;382.05
1246.00;385.35
1248.00;391.16
1250.00;403.89
1252.00;404.27
1254.00;413.14
1256.00;415.83
1258.00;424.09
1260.00;428.59
1262.00;434.23
1264.00;442.97
1266.00;454.99
1268.00;463.09
1270.00;473.12
1272.00;479.28
1274.00;487.80
1276.00;487.31
1278.00;491.64
1280.00;491.89
1282.00;496.14
1284.00;500.66
1286.00;505.93
1288.00;504.23
1290.00;510.63
1292.00;515.77
1294.00;522.26
1296.00;525.09
1298.00;528.09
1300.00;532.66
1302.00;530.42
1304.00;529.69
1306.00;519.06
1308.00;512.18
1310.00;500.02
1312.00;494.35
1314.00;488.09
1316.00;469.40
1318.00;462.84
1320.00;461.79
1322.00;455.57
1324.00;452.34
1326.00;448.21
1328.00;447.48
1330.00;443.26
1332.00;440.08
1334.00;434.41
1336.00;434.94
1338.00;427.91
1340.00;422.28
1342.00;425.40
1344.00;415.80
1346.00;409.52
1348.00;406.28
1350.00;406.79
1352.00;404.20
1354.00;396.65
1356.00;393.61
1358.00;394.40
1360.00;392.02
1362.00;390.47
1364.00;384.98
1366.00;378.70
1368.00;380.70
1370.00;375.37
1372.00;378.26
1374.00;379.96
1376.00;379.47
1378.00;372.36
1380.00;372.17
1382.00;378.14
1384.00;377.18
1386.00;376.80
1388.00;377.68
1390.00;366.97
1392.00;368.29
1394.00;369.84
1396.00;360.30
1398.00;353.59
1400.00;350.95
1402.00;352.11
1404.00;352.75
1406.00;354.25
1408.00;355.89
1410.00;365.52
1412.00;362.81
1414.00;368.18
1416.00;381.71
1418.00;383.45
1420.00;404.75
1422.00;417.99
1424.00;445.05
1426.00;467.50
1428.00;491.98
1430.00;518.32
1432.00;547.50
1434.00;571.41
1436.00;592.15
1438.00;609.67
1440.00;606.62
1442.00;607.60
1444.00;598.31
1446.00;597.15
1448.00;585.13
1450.00;575.95
1452.00;568.52
1454.00;565.45
1456.00;557.11
1458.00;549.68
1460.00;539.34
1462.00;529.00
1464.00;515.49
1466.00;499.22
1468.00;480.15
1470.00;455.67
1472.00;438.00
1474.00;421.72
1476.00;409.05
1478.00;395.74
1480.00;394.62
1482.00;385.13
1484.00;376.92
1486.00;372.62
1488.00;376.06
1490.00;369.77
1492.00;369.92
1494.00;360.67
1496.00;352.12
1498.00;353.68
1500.00;346.21
1502.00;337.67
1504.00;339.53
1506.00;338.14
1508.00;343.99
1510.00;343.23
1512.00;336.73
1514.00;333.30
1516.00;328.02
1518.00;335.56
1520.00;333.18
1522.00;324.59
1524.00;326.82
1526.00;334.20
1528.00;334.30
1530.00;332.33
1532.00;323.80
1534.00;328.64
1536.00;327.86
1538.00;327.66
1540.00;330.75
1542.00;331.77
1544.00;327.39
1546.00;325.56
1548.00;328.28
1550.00;331.19
1552.00;324.99
1554.00;329.94
1556.00;323.20
1558.00;327.40
1560.00;329.69
1562.00;336.68
1564.00;337.13
1566.00;335.23
1568.00;337.36
1570.00;346.12
1572.00;355.54
1574.00;368.49
1576.00;384.83
1578.00;398.76
1580.00;414.16
1582.00;409.78
1584.00;407.52
1586.00;389.78
1588.00;386.95
1590.00;388.52
1592.00;399.68
1594.00;421.55
1596.00;459.56
1598.00;493.40
1600.00;524.74
1602.00;529.26
1604.00;484.08
1606.00;459.75
1608.00;415.00
1610.00;392.42
1612.00;362.31
1614.00;350.76
1616.00;346.68
1618.00;332.78
1620.00;332.30
1622.00;327.72
1624.00;326.08
1626.00;321.27
1628.00;323.17
1630.00;325.64
1632.00;316.92
1634.00;311.77
1636.00;308.35
1638.00;314.03
1640.00;314.77
1642.00;313.93
1644.00;309.16
1646.00;315.44
1648.00;302.58
1650.00;303.88
1652.00;305.58
1654.00;305.41
1656.00;303.48
1658.00;303.20
1660.00;305.72
1662.00;305.51
1664.00;298.11
1666.00;303.20
1668.00;309.79
1670.00;303.57
1672.00;306.52
1674.00;295.67
1676.00;303.00
1678.00;302.71
1680.00;301.80
1682.00;305.21
1684.00;302.69
1686.00;307.69
1688.00;299.80
1690.00;311.45
1692.00;305.98
1694.00;303.58
1696.00;312.61
1698.00;312.69
1700.00;310.63
1702.00;314.78
1704.00;319.42
1706.00;323.97
1708.00;329.03
1710.00;339.36
1712.00;357.45
1714.00;370.27
1716.00;393.24
1718.00;411.14
1720.00;426.93
1722.00;441.80
1724.00;456.18
1726.00;460.56
1728.00;452.55
1730.00;450.09
1732.00;443.08
1734.00;439.48
1736.00;421.17
1738.00;393.24
1740.00;386.32
1742.00;372.95
1744.00;365.92
1746.00;352.11
1748.00;353.03
1750.00;336.52
1752.00;326.04
1754.00;317.06
1756.00;311.51
1758.00;314.66
1760.00;299.54
1762.00;293.04
1764.00;290.92
1766.00;284.65
1768.00;289.34
1770.00;286.18
1772.00;291.45
1774.00;283.49
1776.00;282.44
1778.00;280.26
1780.00;280.54
1782.00;285.74
1784.00;277.26
1786.00;278.71
1788.00;278.34
1790.00;281.52
1792.00;275.86
1794.00;274.32
1796.00;274.90
1798.00;281.11
1800.00;265.62
1802.00;276.59
1804.00;271.68
1806.00;284.13
1808.00;269.55
1810.00;275.00
1812.00;273.68
1814.00;275.34
1816.00;269.95
1818.00;262.51
1820.00;268.70
1822.00;265.59
1824.00;260.62
1826.00;264.14
1828.00;269.98
1830.00;262.30
1832.00;257.65
1834.00;268.00
1836.00;264.69
1838.00;260.02
1840.00;261.88
1842.00;264.05
1844.00;265.09
1846.00;257.89
1848.00;258.52
1850.00;259.39
1852.00;254.21
1854.00;259.55
1856.00;257.55
1858.00;258.98
1860.00;255.93
1862.00;263.13
1864.00;260.98
1866.00;257.31
1868.00;248.40
1870.00;252.03
1872.00;256.84
1874.00;256.98
1876.00;249.40
1878.00;257.24
1880.00;254.26
1882.00;248.11
1884.00;245.67
1886.00;253.58
1888.00;250.81
1890.00;249.30
1892.00;249.51
1894.00;247.97
1896.00;249.37
1898.00;245.92
1900.00;250.88
1902.00;250.57
1904.00;249.32
1906.00;249.36
1908.00;250.13
1910.00;248.77
1912.00;246.64
1914.00;252.33
1916.00;247.55
1918.00;250.71
1920.00;248.44
1922.00;252.01
1924.00;243.26
1926.00;250.49
1928.00;252.13
1930.00;252.07
1932.00;243.50
1934.00;245.12
1936.00;253.46
1938.00;245.47
1940.00;242.64
1942.00;235.96
1944.00;245.06
1946.00;236.19
1948.00;243.33
1950.00;242.64
1952.00;229.81
1954.00;236.75
1956.00;249.33
1958.00;245.77
1960.00;239.77
1962.00;252.47
1964.00;247.00
1966.00;242.58
1968.00;234.01
1970.00;243.21
1972.00;245.82
1974.00;243.38
1976.00;236.96
1978.00;248.60
1980.00;237.52
1982.00;238.55
1984.00;241.31
1986.00;227.94
1988.00;233.08
1990.00;240.82
1992.00;239.34
1994.00;235.81
1996.00;242.00
1998.00;235.82
2000.00;242.08
2002.00;235.85
2004.00;240.67
2006.00;241.06
2008.00;239.88
2010.00;231.20
2012.00;237.57
2014.00;241.95
2016.00;242.81
2018.00;235.08
2020.00;241.36
2022.00;239.71
2024.00;235.15
2026.00;234.31
2028.00;240.82
2030.00;238.08
2032.00;236.48
2034.00;235.34
2036.00;237.19
2038.00;238.49
2040.00;243.04
2042.00;231.48
2044.00;245.89
2046.00;240.96
2048.00;236.57
2050.00;224.24
2052.00;243.68
2054.00;240.96
2056.00;234.83
2058.00;236.05
2060.00;229.72
2062.00;249.38
2064.00;238.24
2066.00;235.24
2068.00;228.07
2070.00;239.19
2072.00;234.47
2074.00;239.26
2076.00;230.45
2078.00;248.18
2080.00;238.75
2082.00;234.32
2084.00;247.78
2086.00;234.79
2088.00;247.42
2090.00;245.27
2092.00;229.82
2094.00;239.52
2096.00;231.98
2098.00;253.70
2100.00;240.51
2102.00;246.23
2104.00;234.31
2106.00;249.77
2108.00;237.56
2110.00;230.91
2112.00;240.96
2114.00;232.13
2116.00;246.67
2118.00;241.74
2120.00;239.05
2122.00;241.86
2124.00;242.99
2126.00;240.54
2128.00;231.90
2130.00;251.51
2132.00;249.14
2134.00;234.68
2136.00;241.73
2138.00;230.69
2140.00;236.43
2142.00;233.10
2144.00;236.31
2146.00;224.68
2148.00;238.26
2150.00;227.75
2152.00;236.89
2154.00;250.33
2156.00;237.93
2158.00;242.30
2160.00;236.80
2162.00;241.87
2164.00;239.77
2166.00;241.98
2168.00;250.49
2170.00;248.74
2172.00;249.21
2174.00;243.44
2176.00;249.88
2178.00;249.66
2180.00;245.44
2182.00;248.11
2184.00;252.00
2186.00;249.43
2188.00;245.24
2190.00;244.14
2192.00;235.98
2194.00;249.33
2196.00;253.50
2198.00;253.08
2200.00;261.30
2202.00;252.07
2204.00;256.23
2206.00;248.67
2208.00;249.36
2210.00;248.92
2212.00;251.72
2214.00;257.04
2216.00;236.36
2218.00;253.50
2220.00;257.57
2222.00;242.65
2224.00;235.87
2226.00;260.64
2228.00;249.56
2230.00;259.48
2232.00;258.62
2234.00;257.74
2236.00;241.11
2238.00;250.80
2240.00;257.18
2242.00;262.57
2244.00;251.70
2246.00;253.95
2248.00;235.48
2250.00;251.12
2252.00;253.26
2254.00;249.42
2256.00;276.58
2258.00;240.03
2260.00;256.24
2262.00;249.42
2264.00;244.38
2266.00;252.50
2268.00;253.39
2270.00;253.84
2272.00;266.30
2274.00;263.24
2276.00;267.32
2278.00;244.99
2280.00;269.63
2282.00;255.68
2284.00;254.77
2286.00;249.39
2288.00;247.90
2290.00;260.78
2292.00;270.72
2294.00;267.07
2296.00;254.68
2298.00;248.02
2300.00;256.30
[ANALYSIS RESULT]
Analysis_Type;None